/* F3 - Waermeleitung in Kristallen - HZB - Hanjo Ryll, Bastian Klemke
/* Spannung am Agilent 6.667000E+0 V
/* Pulszeit am Agilent 2.000000E-2 s
/* t [s]   R1 [Ohm]  R2 [Ohm] 
-1.500000E+0     1.572587E+2     1.371630E+2
-1.474285E+0     1.572545E+2     1.371725E+2
-1.448309E+0     1.572405E+2     1.371586E+2
-1.414690E+0     1.572319E+2     1.371819E+2
-1.387821E+0     1.572319E+2     1.371819E+2
-1.357859E+0     1.572614E+2     1.371819E+2
-1.326839E+0     1.572694E+2     1.371717E+2
-1.294670E+0     1.572595E+2     1.371736E+2
-1.264529E+0     1.572588E+2     1.371738E+2
-1.240623E+0     1.572540E+2     1.371593E+2
-1.211472E+0     1.572470E+2     1.371593E+2
-1.181292E+0     1.572456E+2     1.371644E+2
-1.149073E+0     1.572456E+2     1.371642E+2
-1.117597E+0     1.572697E+2     1.371563E+2
-1.086820E+0     1.572329E+2     1.371563E+2
-1.060179E+0     1.572422E+2     1.371590E+2
-1.030831E+0     1.572335E+2     1.371524E+2
-9.921613E-1     1.572497E+2     1.371670E+2
-9.632640E-1     1.572690E+2     1.371736E+2
-9.397101E-1     1.572690E+2     1.371652E+2
-9.142795E-1     1.572453E+2     1.371578E+2
-8.912072E-1     1.572384E+2     1.371578E+2
-8.668318E-1     1.572508E+2     1.371501E+2
-8.401690E-1     1.572727E+2     1.371864E+2
-8.117776E-1     1.572615E+2     1.371812E+2
-7.888460E-1     1.572627E+2     1.371726E+2
-7.640448E-1     1.572582E+2     1.371700E+2
-7.376180E-1     1.572589E+2     1.371700E+2
-7.153192E-1     1.572589E+2     1.371711E+2
-6.915016E-1     1.572495E+2     1.371676E+2
-6.610684E-1     1.572443E+2     1.371668E+2
-6.226168E-1     1.572547E+2     1.371575E+2
-5.988393E-1     1.572484E+2     1.371575E+2
-5.756054E-1     1.572663E+2     1.371812E+2
-5.491900E-1     1.572746E+2     1.371794E+2
-5.188155E-1     1.572659E+2     1.371693E+2
-4.889584E-1     1.572513E+2     1.371750E+2
-4.566293E-1     1.572703E+2     1.371750E+2
-4.326339E-1     1.572642E+2     1.371791E+2
-4.058270E-1     1.572716E+2     1.371791E+2
-3.801494E-1     1.572549E+2     1.371762E+2
-3.446345E-1     1.572518E+2     1.371762E+2
-3.161764E-1     1.572502E+2     1.371580E+2
-2.878084E-1     1.572502E+2     1.371607E+2
-2.588229E-1     1.572450E+2     1.371607E+2
-2.288232E-1     1.572544E+2     1.371736E+2
-1.881709E-1     1.572629E+2     1.371869E+2
-1.628690E-1     1.572715E+2     1.371775E+2
-1.400051E-1     1.572612E+2     1.371803E+2
-1.117716E-1     1.572681E+2     1.371640E+2
-8.156157E-2     1.572469E+2     1.371640E+2
-5.881548E-2     1.572469E+2     1.371659E+2
-2.713490E-2     1.572506E+2     1.371646E+2
3.139973E-3     1.572673E+2     1.371769E+2
0.000000E+0     1.572657E+2     1.371796E+2
2.450371E-2     1.572345E+2     1.371547E+2
4.943419E-2     1.571388E+2     1.371547E+2
7.196903E-2     1.570511E+2     1.370353E+2
9.595871E-2     1.570201E+2     1.369722E+2
1.189775E-1     1.570201E+2     1.369561E+2
1.412969E-1     1.569953E+2     1.369619E+2
1.723318E-1     1.569944E+2     1.369600E+2
2.002373E-1     1.570028E+2     1.369600E+2
2.265267E-1     1.570120E+2     1.369725E+2
2.574959E-1     1.570233E+2     1.369870E+2
2.903967E-1     1.570326E+2     1.369860E+2
3.189759E-1     1.570430E+2     1.370160E+2
3.465486E-1     1.570430E+2     1.370160E+2
3.700261E-1     1.570557E+2     1.370028E+2
4.025555E-1     1.570593E+2     1.370145E+2
4.289808E-1     1.570674E+2     1.370205E+2
4.560714E-1     1.570661E+2     1.370286E+2
4.850502E-1     1.570819E+2     1.370320E+2
5.129905E-1     1.570884E+2     1.370320E+2
5.444789E-1     1.570828E+2     1.370507E+2
5.747094E-1     1.570828E+2     1.370507E+2
6.003575E-1     1.571065E+2     1.370391E+2
6.303906E-1     1.570981E+2     1.370490E+2
6.564174E-1     1.571306E+2     1.370677E+2
6.858969E-1     1.571259E+2     1.370677E+2
7.173181E-1     1.571320E+2     1.370654E+2
7.491570E-1     1.571336E+2     1.370788E+2
7.802658E-1     1.571388E+2     1.370936E+2
8.066311E-1     1.571388E+2     1.370996E+2
8.380213E-1     1.571611E+2     1.370996E+2
8.660989E-1     1.571697E+2     1.370944E+2
8.971133E-1     1.571553E+2     1.370804E+2
9.259858E-1     1.571445E+2     1.370907E+2
9.489818E-1     1.571439E+2     1.370821E+2
9.730034E-1     1.571505E+2     1.371096E+2
9.995723E-1     1.571790E+2     1.371096E+2
1.022191E+0     1.571790E+2     1.371015E+2
1.045173E+0     1.571766E+2     1.371055E+2
1.076744E+0     1.571731E+2     1.371077E+2
1.108185E+0     1.571902E+2     1.371311E+2
1.141353E+0     1.572031E+2     1.371311E+2
1.166378E+0     1.572026E+2     1.371311E+2
1.191982E+0     1.571775E+2     1.371319E+2
1.215774E+0     1.571897E+2     1.371195E+2
1.239950E+0     1.571897E+2     1.371178E+2
1.270365E+0     1.571796E+2     1.371173E+2
1.300273E+0     1.572066E+2     1.371300E+2
1.329027E+0     1.572155E+2     1.371390E+2
1.366562E+0     1.572154E+2     1.371348E+2
1.406425E+0     1.572029E+2     1.371259E+2
1.433028E+0     1.572130E+2     1.371410E+2
1.458014E+0     1.572130E+2     1.371200E+2
1.481368E+0     1.571920E+2     1.371200E+2
1.506662E+0     1.571903E+2     1.371275E+2
1.530159E+0     1.572103E+2     1.371456E+2
1.560333E+0     1.572304E+2     1.371413E+2
1.594164E+0     1.572229E+2     1.371421E+2
1.625448E+0     1.572169E+2     1.371421E+2
1.649065E+0     1.572278E+2     1.371421E+2
1.680136E+0     1.572278E+2     1.371604E+2
1.712599E+0     1.572153E+2     1.371470E+2
1.739820E+0     1.572294E+2     1.371505E+2
1.768089E+0     1.572211E+2     1.371512E+2
1.797988E+0     1.572271E+2     1.371512E+2
1.821409E+0     1.572292E+2     1.371541E+2
1.850082E+0     1.572306E+2     1.371739E+2
1.879526E+0     1.572501E+2     1.371659E+2
1.909052E+0     1.572501E+2     1.371546E+2
1.942120E+0     1.572442E+2     1.371504E+2
1.970475E+0     1.572369E+2     1.371531E+2
2.007335E+0     1.572370E+2     1.371550E+2
2.030427E+0     1.572294E+2     1.371482E+2
2.064050E+0     1.572239E+2     1.371642E+2
2.091398E+0     1.572416E+2     1.371505E+2
2.119383E+0     1.572263E+2     1.371505E+2
2.148053E+0     1.572357E+2     1.371768E+2
2.184881E+0     1.572602E+2     1.371806E+2
2.210436E+0     1.572578E+2     1.371729E+2
2.236235E+0     1.572499E+2     1.371729E+2
2.267260E+0     1.572481E+2     1.371719E+2
2.304383E+0     1.572409E+2     1.371516E+2
2.331685E+0     1.572407E+2     1.371582E+2
2.355971E+0     1.572407E+2     1.371687E+2
2.380082E+0     1.572394E+2     1.371618E+2
2.415517E+0     1.572363E+2     1.371627E+2
2.448582E+0     1.572547E+2     1.371745E+2
2.478700E+0     1.572454E+2     1.371623E+2
2.506020E+0     1.572240E+2     1.371557E+2
2.532723E+0     1.572473E+2     1.371566E+2
2.563372E+0     1.572425E+2     1.371649E+2
2.589051E+0     1.572425E+2     1.371649E+2
2.612020E+0     1.572355E+2     1.371570E+2
2.640301E+0     1.572317E+2     1.371509E+2
2.669113E+0     1.572300E+2     1.371552E+2
2.695989E+0     1.572283E+2     1.371542E+2
2.724383E+0     1.572340E+2     1.371557E+2
2.757341E+0     1.572327E+2     1.371608E+2
2.795573E+0     1.572346E+2     1.371408E+2
2.819094E+0     1.572346E+2     1.371541E+2
2.842079E+0     1.572219E+2     1.371593E+2
2.870098E+0     1.572272E+2     1.371638E+2
2.894664E+0     1.572451E+2     1.371638E+2
2.919064E+0     1.572537E+2     1.371728E+2
2.950125E+0     1.572490E+2     1.371635E+2
2.977098E+0     1.572476E+2     1.371656E+2
3.004604E+0     1.572468E+2     1.371707E+2
